Day fraction since midnight on 	photometer (mg/L)	photometer (volts)	Source pressure (Pa)
0.5775722850	2.8263182640	3.4889509678	114963.9687500000
start
0.5776301689	2.8184092045	3.4928467274	114965.5625000000
0.5776880215	2.8103725910	3.4968085289	114953.8593750000
0.5777458972	2.8012998104	3.5012850761	114961.5078125000
0.5778037638	2.7958672047	3.5039675236	114951.1015625000
0.5778616270	2.7936959267	3.5050401688	114936.7109375000
0.5779194923	2.8063421249	3.4987967014	114958.0703125000
0.5779773767	2.7976355553	3.5030941963	114958.0781250000
0.5780352330	2.8079454899	3.4980056286	114933.7421875000
0.5780931182	2.8308951855	3.4866979122	114943.6875000000
0.5781509862	2.8759682178	3.4645669460	114952.0312500000
0.5782088361	3.2851119041	3.2682890892	114954.0468750000
0.5782667084	4.4013023376	2.7728910446	114939.0078125000
0.5783245838	5.2930865288	2.4159047604	114957.0234375000
0.5783824607	6.2572054863	2.0649931431	114947.6875000000
0.5784403221	7.0324931145	1.8069379330	114947.4843750000
0.5784981873	7.8312578201	1.5616899729	114933.8437500000
0.5785560487	8.6796855927	1.3222938776	114950.4531250000
0.5786139218	9.5386123657	1.1002591848	114945.8437500000
0.5786717986	10.5439548492	0.8640511632	114931.5078125000
0.5787296786	11.5976552963	0.6412897706	114940.9687500000
0.5787875271	12.5079650879	0.4673095644	114925.9531250000
0.5788454029	13.3134536743	0.3263458014	114935.1171875000
0.5789032626	14.8136434555	0.0929314643	114933.1875000000
0.5789611336	16.0405025482	-0.0729794353	114925.2109375000
0.5790190024	16.2801647186	-0.1030213907	114931.3593750000
0.5790768678	16.8552703857	-0.1721686572	114919.5781250000
0.5791347566	17.3776950836	-0.2315415442	114912.0312500000
0.5791926201	17.9678287506	-0.2948906720	114917.6875000000
0.5792504893	18.5282363892	-0.3515998423	114909.8828125000
0.5793083466	19.1704902649	-0.4127049446	114907.8046875000
0.5793663385	19.8589057922	-0.4738817215	114921.4687500000
0.5794240798	20.5565567017	-0.5316241384	114892.0156250000
0.5794819522	21.2855129242	-0.5877006650	114912.8125000000
0.5795399348	21.8965091705	-0.6315773129	114893.5156250000
0.5795978165	22.4412288666	-0.6684414148	114894.8671875000
0.5796556823	23.0144271851	-0.7050710917	114891.7890625000
0.5797134437	23.6102733612	-0.7409319878	114893.4843750000
0.5797714260	24.1851730347	-0.7735149264	114898.0625000000
0.5798292872	24.6669807434	-0.7993797064	114890.1171875000
0.5798871680	25.0579128265	-0.8194463849	114881.9765625000
