Day fraction since midnight on 	photometer (mg/L)	photometer (volts)	Source pressure (Pa)
0.6448757210	2.8451271057	3.4796988964	110767.5312500000
0.6449335982	2.8511698246	3.4767303467	110767.3828125000
start
0.6449914499	2.8304417133	3.4869210720	110744.6796875000
0.6450493374	2.8028798103	3.5005052090	110764.8515625000
0.6451072042	2.8003711700	3.5017435551	110767.4375000000
0.6451650661	2.7921462059	3.5058057308	110756.1562500000
0.6452229238	2.7989056110	3.5024671555	110764.6250000000
0.6452808067	3.4872863293	3.1742999554	110764.5546875000
0.6453386798	7.3375325203	1.7109007835	110745.6640625000
0.6453965298	10.9906949997	0.7666581273	110754.8984375000
0.6454544077	13.8749637604	0.2347480953	110757.2656250000
0.6455122836	16.4023284912	-0.1180527955	110737.9296875000
0.6455701501	18.5717144012	-0.3558645546	110745.3906250000
0.6456280094	20.5402240753	-0.5303190947	110736.3046875000
0.6456858938	22.2838687897	-0.6580027342	110747.2578125000
0.6457437453	23.8827114105	-0.7566123009	110742.4218750000
0.6458016128	25.3285140991	-0.8328725696	110740.3906250000
