Day fraction since midnight on 	photometer (mg/L)	photometer (volts)	Source pressure (Pa)
0.5889727293	2.7953591347	3.5042185783	114934.3906250000
0.5890306104	2.7950751781	3.5043587685	114931.2656250000
0.5890885832	2.7942869663	3.5047481060	114929.4453125000
0.5891463370	2.7979638577	3.5029320717	114921.1406250000
0.5892043379	2.8005869389	3.5016369820	114936.8750000000
0.5892620803	2.8108179569	3.4965889454	114913.3593750000
start
0.5893200625	2.8133709431	3.4953300953	114929.2109375000
0.5893778279	2.8065135479	3.4987120628	114922.4453125000
0.5894357927	2.7987282276	3.5025546551	114939.0390625000
0.5894936767	2.7929768562	3.5053954124	114940.0156250000
0.5895515334	2.7934916019	3.5051410198	114937.2421875000
0.5896092848	2.8435330391	3.4804823399	114936.1328125000
0.5896671626	3.8536591530	3.0088660717	114957.2734375000
0.5897251388	6.1561841965	2.1001553535	114950.1328125000
0.5897830256	8.1039104462	1.4824732542	114952.3125000000
0.5898408781	9.9230346680	1.0070499182	114952.7656250000
0.5898987503	11.7751646042	0.6060763597	114940.7968750000
0.5899566137	13.3675384521	0.3172917366	114947.7812500000
0.5900144915	14.8921031952	0.0816846788	114946.4921875000
0.5900723621	16.3868732452	-0.1161616445	114956.3515625000
0.5901302172	17.7463817596	-0.2715674043	114957.3750000000
0.5901880938	19.0207939148	-0.3988203406	114959.7343750000
0.5902459726	20.3556232452	-0.5154150724	114935.9687500000
0.5903038274	21.5242671967	-0.6051741242	114964.0937500000
0.5903616964	22.6310997009	-0.6808142662	114958.2421875000
0.5904195795	23.4600067139	-0.7320939302	114966.5234375000
0.5904774332	24.4131717682	-0.7859139442	114953.3046875000
0.5905353188	25.2894172668	-0.8309556842	114964.5390625000
