Day fraction since midnight on 	photometer (mg/L)	photometer (volts)	Source pressure (Pa)
0.6708858782	3.1411139965	3.3364312649	106373.6484375000
0.6709428405	3.1431126595	3.3354785442	106381.2578125000
start
0.6710012539	3.1305856705	3.3414530754	106389.6875000000
0.6710592885	3.2668271065	3.2768859863	106364.5546875000
0.6711118649	23.5863761902	-0.7395355105	106385.0546875000
0.6711745399	35.4211921692	-1.1404471397	106389.6875000000
0.6712317502	34.9637374878	-1.1323109865	106402.8281250000
0.6712907661	33.6203231812	-1.1060862541	106395.3906250000
0.6713483680	30.2697620392	-1.0225269794	106419.7812500000
0.6714064750	29.8166065216	-1.0088567734	106428.6562500000
0.6714586274	29.2861671448	-0.9920264482	106422.5078125000
0.6715215536	27.4129981995	-0.9246975183	106424.2656250000
0.6715801298	25.8864154816	-0.8594042063	106421.1171875000
0.6716381020	24.7786178589	-0.8051924109	106436.5546875000
0.6716958990	23.8789672852	-0.7563998103	106447.9296875000
0.6717527575	23.3714637756	-0.7268220186	106461.0625000000
0.6718107863	21.9442577362	-0.6348917484	106467.6015625000
0.6718695844	20.9865112305	-0.5652055144	106468.4609375000
0.6719271926	20.8732452393	-0.5565021038	106481.5234375000
0.6719848575	19.6816711426	-0.4585423470	106495.8671875000
0.6720423914	19.3064117432	-0.4251286983	106511.2500000000
0.6721009863	18.3617954254	-0.3350962102	106491.8046875000
0.6721578591	17.6745071411	-0.2638828456	106504.4531250000
0.6722169111	17.3557815552	-0.2291144878	106518.0078125000
0.6722742529	16.5600910187	-0.1371878088	106505.7890625000
0.6723324986	15.8660507202	-0.0506422594	106505.7968750000
0.6723903312	15.2607612610	0.0300349928	106526.6875000000
0.6724483363	14.8873643875	0.0823613554	106525.6484375000
0.6725053450	14.4463958740	0.1467949450	106533.9921875000
0.6725632764	14.1371812820	0.1937476397	106544.7968750000
0.6726213684	13.6727819443	0.2671232820	106532.2187500000
0.6726789511	13.3685979843	0.3171148598	106558.6562500000
0.6727376783	12.8754272461	0.4015555680	106546.4218750000
0.6727949824	12.6334886551	0.4445689023	106565.8437500000
0.6728526217	12.3164587021	0.5025731325	106569.1640625000
0.6729109308	11.9502820969	0.5719603300	106573.0781250000
0.6729683025	11.6740827560	0.6260497570	106580.8671875000
0.6730269984	11.4029188156	0.6806654334	106585.4375000000
0.6730849532	11.1615924835	0.7305659652	106577.2265625000
0.6731427151	10.8553943634	0.7956850529	106595.3593750000
0.6731999619	10.6482324600	0.8409169316	106597.5234375000
0.6732584425	10.4989356995	0.8741157651	106595.1796875000
0.6733156548	10.2802333832	0.9236755371	106596.1718750000
0.6733731048	10.0018005371	0.9884015918	106619.8203125000
0.6734230790	9.9092102051	1.0103385448	106619.2968750000
0.6734889175	9.6881752014	1.0635576248	106626.0000000000
0.6735411725	9.5105810165	1.1072007418	106624.2812500000
0.6736054293	9.3287086487	1.1527270079	106616.0390625000
0.6736635868	9.1697158813	1.1932278872	106630.7265625000
0.6737213535	9.1738882065	1.1921564341	106632.4375000000
0.6737789715	8.9530038834	1.2495067120	106631.2421875000
0.6738372049	8.8142480850	1.2862036228	106640.6250000000
0.6738950467	8.6606254578	1.3274463415	106629.8671875000
0.6739525330	8.5051279068	1.3698599339	106660.7500000000
0.6740098492	8.4973163605	1.3720084429	106661.6093750000
0.6740639037	8.3691892624	1.4074969292	106674.4765625000
0.6741258745	8.2683620453	1.4357537031	106652.2812500000
0.6741838002	8.1190347672	1.4781434536	106668.6484375000
0.6742417194	8.0822095871	1.4886974096	106668.5156250000
0.6742997624	7.9914937019	1.5148665905	106666.5859375000
0.6743575792	7.8985939026	1.5419195890	106681.9609375000
0.6744147567	7.8207263947	1.5647944212	106673.7187500000
0.6744732433	7.7495746613	1.5858569145	106679.1093750000
0.6745310547	7.7273516655	1.5924669504	106681.9921875000
0.6745886846	7.5921626091	1.6330044270	106678.6875000000
0.6746469043	7.5265126228	1.6528936625	106687.5859375000
